<?xml version="1.0" encoding="UTF-8"?>
<Bundle xmlns="http://hl7.org/fhir">
    <type value="document"/>
    <entry>
        <resource>
            <Composition xmlns="http://hl7.org/fhir">
                <identifier>
                    <value value="DOC-a2d6a8470bad"/>
                </identifier>
                <status value="final"/>
                <type>
                    <coding>
                        <system value="http://loinc.org"/>
                        <code value="8716-3"/>
                        <display value="Vital signs, physical findings"/>
                    </coding>
                </type>
                <category>
                    <coding>
                        <system value="http://loinc.org"/>
                        <code value="69459-6"/>
                        <display value="Care record summary panel"/>
                    </coding>
                </category>
                <subject>
                    <reference value="Patient/54ac308f-5964-4298-8f7c-93538db8a1f4"/>
                </subject>
                <date value="2022-04-17T09:25:58-05:00"/>
                <author>
                    <reference value="Practitioner/92d1c33d-169c-43dc-9fec-aad3f3ef3e26"/>
                </author>
                <title value="PANEL DE SIGNOS VITALES"/>
                <confidentiality value="R"/>
                <attester>
                    <mode value="professional"/>
                    <time value="2022-04-17T09:25:58-05:00"/>
                    <party>
                        <reference value="Practitioner/92d1c33d-169c-43dc-9fec-aad3f3ef3e26"/>
                    </party>
                </attester>
                <custodian>
                    <reference value="Organization/1733f196-2c8a-484f-b874-13396990b69d"/>
                </custodian>
                <section>
                    <title value="SIGNOS VITALES"/>
                    <code>
                        <coding>
                            <system value="http://loinc.org"/>
                            <code value="8716-3"/>
                            <display value="Vital signs"/>
                        </coding>
                    </code>
                    <entry>
                        <reference value="#frecuenciaCardiaca"/>
                    </entry>
                    <entry>
                        <reference value="#presionSanguinea"/>
                    </entry>
                    <entry>
                        <reference value="#frecuenciaRespiratoria"/>
                    </entry>
                    <entry>
                        <reference value="#temperaturaCorporal"/>
                    </entry>
                </section>
            </Composition>
        </resource>
    </entry>
    <entry>
        <resource>
            <Observation xmlns="http://hl7.org/fhir">
                <id value="frecuenciaCardiaca"/>
                <status value="final"/>
                <category>
                    <coding>
                        <system value="http://terminology.hl7.org/CodeSystem/observation-category"/>
                        <code value="vital-signs"/>
                        <display value="Vital Signs"/>
                    </coding>
                </category>
                <code>
                    <coding>
                        <system value="http://loinc.org"/>
                        <code value="364075005"/>
                        <display value="frecuencia cardíaca"/>
                    </coding>
                </code>
                <subject>
                    <reference value="Patient/54ac308f-5964-4298-8f7c-93538db8a1f4"/>
                </subject>
                <effectiveDateTime value="2022-04-17T09:30:23-05:00"/>
                <performer>
                    <reference value="Practitioner/92d1c33d-169c-43dc-9fec-aad3f3ef3e26"/>
                </performer>
                <valueQuantity>
                    <value value="75"/>
                    <unit value="LPM"/>
                </valueQuantity>
                <interpretation>
                    <coding>
                        <system value="http://terminology.hl7.org/CodeSystem/v3-ObservationInterpretation"/>
                        <code value="N"/>
                        <display value="Normal"/>
                    </coding>
                </interpretation>
                <referenceRange>
                    <low>
                        <value value="60"/>
                        <unit value="LPM"/>
                    </low>
                    <high>
                        <value value="100"/>
                        <unit value="LPM"/>
                    </high>
                </referenceRange>
            </Observation>
        </resource>
    </entry>
    <entry>
        <resource>
            <Observation xmlns="http://hl7.org/fhir">
                <id value="presionSanguinea"/>
                <status value="final"/>
                <category>
                    <coding>
                        <system value="http://terminology.hl7.org/CodeSystem/observation-category"/>
                        <code value="vital-signs"/>
                        <display value="Vital Signs"/>
                    </coding>
                </category>
                <code>
                    <coding>
                        <system value="http://loinc.org"/>
                        <code value="75367002"/>
                        <display value="presión sanguínea"/>
                    </coding>
                </code>
                <subject>
                    <reference value="Patient/54ac308f-5964-4298-8f7c-93538db8a1f4"/>
                </subject>
                <effectiveDateTime value="2022-04-17T09:30:23-05:00"/>
                <performer>
                    <reference value="Practitioner/92d1c33d-169c-43dc-9fec-aad3f3ef3e26"/>
                </performer>
                <component>
                    <code>
                        <coding>
                            <system value="http://loinc.org"/>
                            <code value="271649006"/>
                            <display value="presión sistólica"/>
                        </coding>
                    </code>
                    <valueQuantity>
                        <value value="95"/>
                        <unit value="mmHg"/>
                    </valueQuantity>
                    <interpretation>
                        <coding>
                            <system value="http://terminology.hl7.org/CodeSystem/v3-ObservationInterpretation"/>
                            <code value="N"/>
                            <display value="Normal"/>
                        </coding>
                    </interpretation>
                    <referenceRange>
                        <low>
                            <value value="90"/>
                            <unit value="mmHg"/>
                        </low>
                        <high>
                            <value value="120"/>
                            <unit value="mmHg"/>
                        </high>
                    </referenceRange>
                </component>
                <component>
                    <code>
                        <coding>
                            <system value="http://loinc.org"/>
                            <code value="271650006"/>
                            <display value="presión diastólica"/>
                        </coding>
                    </code>
                    <valueQuantity>
                        <value value="70"/>
                        <unit value="mmHg"/>
                    </valueQuantity>
                    <interpretation>
                        <coding>
                            <system value="http://terminology.hl7.org/CodeSystem/v3-ObservationInterpretation"/>
                            <code value="N"/>
                            <display value="Normal"/>
                        </coding>
                    </interpretation>
                    <referenceRange>
                        <low>
                            <value value="60"/>
                            <unit value="mmHg"/>
                        </low>
                        <high>
                            <value value="80"/>
                            <unit value="mmHg"/>
                        </high>
                    </referenceRange>
                </component>
            </Observation>
        </resource>
    </entry>
    <entry>
        <resource>
            <Observation xmlns="http://hl7.org/fhir">
                <id value="frecuenciaRespiratoria"/>
                <status value="final"/>
                <category>
                    <coding>
                        <system value="http://terminology.hl7.org/CodeSystem/observation-category"/>
                        <code value="vital-signs"/>
                        <display value="Vital Signs"/>
                    </coding>
                </category>
                <code>
                    <coding>
                        <system value="http://loinc.org"/>
                        <code value="86290005"/>
                        <display value="frecuencia respiratoria"/>
                    </coding>
                </code>
                <subject>
                    <reference value="Patient/54ac308f-5964-4298-8f7c-93538db8a1f4"/>
                </subject>
                <effectiveDateTime value="2022-04-17T09:30:23-05:00"/>
                <performer>
                    <reference value="Practitioner/92d1c33d-169c-43dc-9fec-aad3f3ef3e26"/>
                </performer>
                <valueQuantity>
                    <value value="15"/>
                    <unit value="RPM"/>
                </valueQuantity>
                <interpretation>
                    <coding>
                        <system value="http://terminology.hl7.org/CodeSystem/v3-ObservationInterpretation"/>
                        <code value="N"/>
                        <display value="Normal"/>
                    </coding>
                </interpretation>
                <referenceRange>
                    <low>
                        <value value="12"/>
                        <unit value="RPM"/>
                    </low>
                    <high>
                        <value value="18"/>
                        <unit value="RPM"/>
                    </high>
                </referenceRange>
            </Observation>
        </resource>
    </entry>
    <entry>
        <resource>
            <Observation xmlns="http://hl7.org/fhir">
                <id value="temperaturaCorporal"/>
                <status value="final"/>
                <category>
                    <coding>
                        <system value="http://terminology.hl7.org/CodeSystem/observation-category"/>
                        <code value="vital-signs"/>
                        <display value="Vital Signs"/>
                    </coding>
                </category>
                <code>
                    <coding>
                        <system value="http://loinc.org"/>
                        <code value="386725007"/>
                        <display value="temperatura corporal"/>
                    </coding>
                </code>
                <subject>
                    <reference value="Patient/54ac308f-5964-4298-8f7c-93538db8a1f4"/>
                </subject>
                <effectiveDateTime value="2022-04-17T09:30:23-05:00"/>
                <performer>
                    <reference value="Practitioner/92d1c33d-169c-43dc-9fec-aad3f3ef3e26"/>
                </performer>
                <valueQuantity>
                    <value value="37"/>
                    <unit value="ºC"/>
                </valueQuantity>
                <interpretation>
                    <coding>
                        <system value="http://terminology.hl7.org/CodeSystem/v3-ObservationInterpretation"/>
                        <code value="N"/>
                        <display value="Normal"/>
                    </coding>
                </interpretation>
                <referenceRange>
                    <low>
                        <value value="36.5"/>
                        <unit value="ºC"/>
                    </low>
                    <high>
                        <value value="37.3"/>
                        <unit value="ºC"/>
                    </high>
                </referenceRange>
            </Observation>
        </resource>
    </entry>
</Bundle>