<?xml version="1.0" encoding="UTF-8"?>
<Bundle xmlns="http://hl7.org/fhir">
  <type value="transaction"/>
  <entry>
    <fullUrl value="DocumentReference/DocumentReferenceCo"/>
    <resource>
      <DocumentReference>
        <id value="8c7e935d-bd41-442b-8f72-487ec0940e7c"/>
        <meta>
          <profile value="StructureDefinition/DocumentReferenceCo"/>
        </meta>
        <text>
          <status value="generated"/><div xmlns="http://www.w3.org/1999/xhtml"><p><b>Generated Narrative</b></p><div style="display: inline-block; background-color: #d9e0e7; padding: 6px; margin: 4px; border: 1px solid #8da1b4; border-radius: 5px; line-height: 60%"><p style="margin-bottom: 0px">Resource "DocumentReferenceCo" </p><p style="margin-bottom: 0px">Profile: <a href="StructureDefinition-DocumentReferenceCo.html">Referencia de Documentos</a></p></div><p><b>status</b>: current</p><p><b>type</b>: Patient summary Document <span style="background: LightGoldenRodYellow; margin: 4px; border: 1px solid khaki"> (<a href="https://loinc.org/">LOINC</a>#60591-5)</span></p><p><b>subject</b>: <a href="#Patient_e4ae1366-3437-472c-9afc-f6482ea774ac">See above (Patient/0bcc4194-1934-4dcb-85c0-286ad9809502)</a></p><p><b>date</b>: 3 mar. 2022 07:30:00</p><p><b>author</b>: <a href="Practitioner-ProfesionalColombia.html">Practitioner/f11dbada-c772-4025-a23c-f7deb42e29f7</a></p><p><b>custodian</b>: <a href="Organization-OrganizacionEjemplo.html">Organization/33f613af-b634-46fa-a45e-6fc5af02b119</a> "DIRECCION DEPARTAMENTAL DE ANTIOQUIA"</p><blockquote><p><b>content</b></p></blockquote></div>
        </text>
        <status value="current"/>
        <type>
          <coding>
            <system value="http://loinc.org"/>
            <code value="60591-5"/>
          </coding>
        </type>
        <subject>
          <reference value="Patient/0bcc4194-1934-4dcb-85c0-286ad9809502"/>
        </subject>
        <date value="2022-03-03T10:30:00Z"/>
        <author>
          <reference value="Practitioner/f11dbada-c772-4025-a23c-f7deb42e29f7"/>
        </author>
        <custodian>
          <reference value="Organization/33f613af-b634-46fa-a45e-6fc5af02b119"/>
        </custodian>
        <content>
          <attachment>
            <contentType value="application/fhir+json"/>
            <url value="https://www.minsalud.gov.co/ihc/Bogota/Composition/3213131"/>
          </attachment>
        </content>
      </DocumentReference>
    </resource>
    <request>
      <method value="PUT"/>
      <url value="DocumentReference/8c7e935d-bd41-442b-8f72-487ec0940e7c"/>
    </request>
  </entry>
  <entry>
    <fullUrl value="Composition/462fc8e7-2780-448a-9704-d1d0fa83f389"/>
    <resource>
      <Composition>
        <id value="462fc8e7-2780-448a-9704-d1d0fa83f389"/>
        <meta>
          <profile value="StructureDefinition/CompositionCo"/>
        </meta>
        <text>
          <status value="generated"/><div xmlns="http://www.w3.org/1999/xhtml"><p><b>Generated Narrative</b></p><div style="display: inline-block; background-color: #d9e0e7; padding: 6px; margin: 4px; border: 1px solid #8da1b4; border-radius: 5px; line-height: 60%"><p style="margin-bottom: 0px">Resource "CompositionColombia" Version "1" Updated "2021-10-13 10:23:44+0000" </p><p style="margin-bottom: 0px">Profile: <a href="StructureDefinition-CompositionCo.html">Documento Co</a></p></div><p><b>status</b>: final</p><p><b>type</b>: Patient Summary Document <span style="background: LightGoldenRodYellow; margin: 4px; border: 1px solid khaki"> (<a href="https://loinc.org/">LOINC</a>#60591-5)</span></p><p><b>date</b>: 2022-03-05 06:30:00+0100</p><p><b>author</b>: <a href="Practitioner-ProfesionalColombia.html">Practitioner/f11dbada-c772-4025-a23c-f7deb42e29f7</a></p><p><b>title</b>: Resumen de Paciente Colombia</p></div>
        </text>
        <status value="final"/>
        <type>
          <coding>
            <system value="http://loinc.org"/>
            <code value="60591-5"/>
            <display value="Patient Summary Document"/>
          </coding>
        </type>
        <subject>
          <reference value="Patient/0bcc4194-1934-4dcb-85c0-286ad9809502"/>
        </subject>
        <date value="2022-03-05T18:30:00+01:00"/>
        <author>
          <reference value="Practitioner/f11dbada-c772-4025-a23c-f7deb42e29f7"/>
        </author>
        <title value="Resumen de Paciente Colombia"/>
        <section>
          <title value="Condiciones del Paciente"/>
          <code>
            <coding>
              <system value="http://loinc.org"/>
              <code value="11450-4"/>
              <display value="Problem list Reported"/>
            </coding>
          </code>
          <text>
            <status value="generated"/><div xmlns="http://www.w3.org/1999/xhtml">CONDICIONES</div>
          </text>
          <entry>
            <reference value="Condition/67708d03-d47f-4ee3-ad78-96d9a8da665c"/>
          </entry>
        </section>
      </Composition>
    </resource>
    <request>
      <method value="PUT"/>
      <url value="Composition/462fc8e7-2780-448a-9704-d1d0fa83f389"/>
    </request>
  </entry>
  <entry>
    <fullUrl value="Condition/67708d03-d47f-4ee3-ad78-96d9a8da665c"/>
    <resource>
      <Condition>
        <id value="67708d03-d47f-4ee3-ad78-96d9a8da665c"/>
        <meta>
          <profile value="StructureDefinition/ConditionCo"/>
        </meta>
        <text>
          <status value="generated"/><div xmlns="http://www.w3.org/1999/xhtml"><p><b>Generated Narrative</b></p><div style="display: inline-block; background-color: #d9e0e7; padding: 6px; margin: 4px; border: 1px solid #8da1b4; border-radius: 5px; line-height: 60%"><p style="margin-bottom: 0px">Resource "ConditionColombia" Version "1" Updated "2022-01-13 10:23:44+0000" </p><p style="margin-bottom: 0px">Profile: <a href="StructureDefinition-ConditionCo.html">Condition Co</a></p></div><p><b>code</b>: Diabetes Tipo 1, con complicaciones neurologicas <span style="background: LightGoldenRodYellow; margin: 4px; border: 1px solid khaki"> (<a href="http://terminology.hl7.org/3.1.0/CodeSystem-icd10.html">ICD-10</a>#E10.4 "Type 1 diabetes mellitus : With neurological complications")</span></p><p><b>subject</b>: <a href="Patient-PacienteColombiano.html">Patient/0bcc4194-1934-4dcb-85c0-286ad9809502</a> " LÓPEZ"</p></div>
        </text>
        <code>
          <coding>
            <system value="http://hl7.org/fhir/sid/icd-10"/>
            <code value="E10.4"/>
            <display value="Type 1 diabetes mellitus : With neurological complications"/>
          </coding>
          <text value="Diabetes Tipo 1, con complicaciones neurologicas"/>
        </code>
        <subject>
          <reference value="Patient/0bcc4194-1934-4dcb-85c0-286ad9809502"/>
        </subject>
      </Condition>
    </resource>
    <request>
      <method value="PUT"/>
      <url value="Condition/67708d03-d47f-4ee3-ad78-96d9a8da665c"/>
    </request>
  </entry>
  <entry>
    <fullUrl value="Patient/0bcc4194-1934-4dcb-85c0-286ad9809502"/>
    <resource>
      <Patient>
        <id value="e4ae1366-3437-472c-9afc-f6482ea774ac"/>
        <meta>
          <profile value="StructureDefinition/PacienteCo"/>
        </meta>
        <text>
          <status value="generated"/><div xmlns="http://www.w3.org/1999/xhtml"><p><b>Generated Narrative</b></p><div style="display: inline-block; background-color: #d9e0e7; padding: 6px; margin: 4px; border: 1px solid #8da1b4; border-radius: 5px; line-height: 60%"><p style="margin-bottom: 0px">Resource "e4ae1366-3437-472c-9afc-f6482ea774ac" Version "1" Updated "2022-03-08 10:23:44+0000" </p><p style="margin-bottom: 0px">Profile: <a href="StructureDefinition-PacienteCo.html">Paciente Co</a></p></div><p><b>identifier</b>: Cédula ciudadanía: 98765</p><p><b>name</b>: Luis Alberto Sanchez </p><p><b>gender</b>: male</p><p><b>birthDate</b>: 1974-12-25</p></div>
        </text>
        <identifier>
          <type>
            <extension url="https://www.minsalud.gov.co/ihc/fhir/StructureDefinition/co-pais">
              <valueCodeableConcept>
                <coding>
                  <system value="https://www.minsalud.gov.co/ihc/fhir/CodeSystem/PaisesCS"/>
                  <code value="170"/>
                </coding>
              </valueCodeableConcept>
            </extension>
            <coding>
              <system value="https://www.minsalud.gov.co/ihc/fhir/CodeSystem/IdspersonaColombia"/>
              <code value="CC"/>
              <display value="Cédula ciudadanía"/>
            </coding>
          </type>
          <value value="98765"/>
          <assigner>
            <display value="Registraduria Nacional"/>
          </assigner>
        </identifier>
        <name>
          <family value="Sanchez">
            <extension url="http://hl7.org/fhir/StructureDefinition/humanname-mothers-family">
              <valueString value="Martinez"/>
            </extension>
          </family>
          <given value="Luis"/>
          <given value="Alberto"/>
        </name>
        <gender value="male"/>
        <birthDate value="1974-12-25"/>
      </Patient>
    </resource>
    <request>
      <method value="PUT"/>
      <url value="Patient/e4ae1366-3437-472c-9afc-f6482ea774ac"/>
    </request>
  </entry>
</Bundle>